<?xml version="1.0" encoding="UTF-8"?>

<Bundle xmlns="http://hl7.org/fhir">
  <id value="66c8856b-ba11-4876-8aa8-467aad8c11a2"/>
  <meta>
    <extension url="http://hl7.org/fhir/StructureDefinition/instance-name">
      <valueString value="PractitionerRole_Practitioner_Endpoint_Bundle_Example Example"/>
    </extension>
    <extension url="http://hl7.org/fhir/StructureDefinition/instance-description">
      <valueMarkdown value="This is a PractitionerRole_Practitioner_Endpoint_Bundle_Example example for the *Bundle Profile*."/>
    </extension>
  </meta>
  <type value="searchset"/>
  <total value="1"/>
  <link>
    <relation value="self"/>
    <url value="http://52.90.126.238:8080/fhir/baseDstu3/PractitionerRole?_id=PractitionerRole-1&amp;_include=PractitionerRole%3Apractitioner&amp;_include=PractitionerRole%3Aendpoint"/>
  </link>
  <entry>
    <fullUrl value="http://52.90.126.238:8080/fhir/baseDstu3/PractitionerRole/PractitionerRole-1"/>
    <resource>
      <PractitionerRole>
        <id value="PractitionerRole-1"/>
        <meta>
          <profile value="http://hl7.org/fhir/us/core/StructureDefinition/us-core-practitionerrole"/>
        </meta>
        <text>
          <status value="generated"/><div xmlns="http://www.w3.org/1999/xhtml"><p><b>Generated Narrative</b></p><div style="display: inline-block; background-color: #d9e0e7; padding: 6px; margin: 4px; border: 1px solid #8da1b4; border-radius: 5px; line-height: 60%"><p style="margin-bottom: 0px">Resource "PractitionerRole-1" </p><p style="margin-bottom: 0px">Profile: <a href="StructureDefinition-us-core-practitionerrole.html">US Core PractitionerRole Profile</a></p></div><p><b>practitioner</b>: <a href="#Practitioner_Practitioner-1011">See above (Practitioner/Practitioner-1011: Brenda Jennings Richard MD)</a></p><p><b>organization</b>: <a href="Organization-acme-lab.html">Organization/acme-lab: Acme Lab</a> "Acme Labs"</p><p><b>code</b>: Primary Care Clinic/Center <span style="background: LightGoldenRodYellow; margin: 4px; border: 1px solid khaki"> (provider-taxonomy#261QP2300X)</span></p><p><b>specialty</b>: General Practice Physician <span style="background: LightGoldenRodYellow; margin: 4px; border: 1px solid khaki"> (provider-taxonomy#208D00000X)</span></p><p><b>location</b>: <a href="Location-hl7east.html">Location/hl7east: Health Level Seven International</a> "Health Level Seven International - Amherst"</p><p><b>endpoint</b>: </p><ul><li><a href="#Endpoint_71">See above (http://52.90.126.238:8080/fhir/baseDstu3/Endpoint/Endpoint-71: Westwood Physicians Organization ADT)</a></li><li><a href="#Endpoint_71">See above (http://52.90.126.238:8080/fhir/baseDstu3/Endpoint/Endpoint-71: Brenda.Jennings.Richard.MD@direct.example.org)</a></li></ul></div>
        </text>
        <practitioner>
          <reference value="Practitioner/Practitioner-1011"/>
          <display value="Brenda Jennings Richard MD"/>
        </practitioner>
        <organization>
          <reference value="Organization/acme-lab"/>
          <display value="Acme Lab"/>
        </organization>
        <code>
          <coding>
            <system value="http://nucc.org/provider-taxonomy"/>
            <code value="261QP2300X"/>
            <display value="Primary Care Clinic/Center"/>
          </coding>
        </code>
        <specialty>
          <coding>
            <system value="http://nucc.org/provider-taxonomy"/>
            <code value="208D00000X"/>
            <display value="General Practice Physician"/>
          </coding>
        </specialty>
        <location>
          <reference value="Location/hl7east"/>
          <display value="Health Level Seven International"/>
        </location>
        <endpoint>
          <reference value="http://52.90.126.238:8080/fhir/baseDstu3/Endpoint/Endpoint-71"/>
          <display value="Westwood Physicians Organization ADT"/>
        </endpoint>
        <endpoint>
          <reference value="http://52.90.126.238:8080/fhir/baseDstu3/Endpoint/Endpoint-71"/>
          <display value="Brenda.Jennings.Richard.MD@direct.example.org"/>
        </endpoint>
      </PractitionerRole>
    </resource>
    <search>
      <mode value="match"/>
    </search>
  </entry>
  <entry>
    <fullUrl value="http://52.90.126.238:8080/fhir/baseDstu3/Practitioner/Practitioner-1011"/>
    <resource>
      <Practitioner>
        <id value="Practitioner-1011"/>
        <meta>
          <profile value="http://hl7.org/fhir/us/core/StructureDefinition/us-core-practitioner"/>
        </meta>
        <text>
          <status value="generated"/><div xmlns="http://www.w3.org/1999/xhtml"><p><b>Generated Narrative</b></p><div style="display: inline-block; background-color: #d9e0e7; padding: 6px; margin: 4px; border: 1px solid #8da1b4; border-radius: 5px; line-height: 60%"><p style="margin-bottom: 0px">Resource "Practitioner-1011" </p><p style="margin-bottom: 0px">Profile: <a href="StructureDefinition-us-core-practitioner.html">US Core Practitioner Profile</a></p></div><p><b>identifier</b>: id: 000001011 (OFFICIAL), id: 9999991011 (OFFICIAL), id: d46f70565a1042f6a6ece48dd81b408f (OFFICIAL)</p><p><b>name</b>: Brenda Jennings Richard </p><p><b>telecom</b>: ph: 313-555-6868(HOME), ph: 313-555-6443(WORK)</p><p><b>address</b>: 346 W Plum Avenu Dearborn MI 48123</p><p><b>gender</b>: female</p><p><b>birthDate</b>: 1976-11-15</p><h3>Qualifications</h3><table class="grid"><tr><td>-</td><td><b>Identifier</b></td><td><b>Code</b></td><td><b>Issuer</b></td></tr><tr><td>*</td><td>Michigan Medical License: LARA-1011 (OFFICIAL)</td><td>Medical Doctor <span style="background: LightGoldenRodYellow; margin: 4px; border: 1px solid khaki"> (license-type#4305)</span></td><td><span>: Michigan Department of Licensing and Regulatory Affairs</span></td></tr></table></div>
        </text>
        <identifier>
          <use value="official"/>
          <system value="http://hl7.org/fhir/sid/us-ssn"/>
          <value value="000001011"/>
        </identifier>
        <identifier>
          <use value="official"/>
          <system value="http://hl7.org/fhir/sid/us-npi"/>
          <value value="9999991011"/>
        </identifier>
        <identifier>
          <use value="official"/>
          <system value="http://mihin.org/fhir/cks"/>
          <value value="d46f70565a1042f6a6ece48dd81b408f"/>
        </identifier>
        <name>
          <family value="Richard"/>
          <given value="Brenda"/>
          <given value="Jennings"/>
          <suffix value="MD"/>
        </name>
        <telecom>
          <system value="phone"/>
          <value value="313-555-6868"/>
          <use value="home"/>
        </telecom>
        <telecom>
          <system value="phone"/>
          <value value="313-555-6443"/>
          <use value="work"/>
        </telecom>
        <address>
          <text value="346 W Plum Avenu Dearborn MI 48123"/>
          <line value="346 W Plum Avenue"/>
          <city value="Dearborn"/>
          <state value="MI"/>
          <postalCode value="48126"/>
        </address>
        <gender value="female"/>
        <birthDate value="1976-11-15"/>
        <qualification>
          <identifier>
            <use value="official"/>
            <type>
              <coding>
                <system value="http://terminology.hl7.org/CodeSystem/v2-0203"/>
                <code value="MD"/>
                <display value="Medical License number"/>
              </coding>
              <text value="Michigan Medical License"/>
            </type>
            <system value="http://example.org/michigan.gov/fhir/medical-license"/>
            <value value="LARA-1011"/>
            <assigner>
              <display value="State of Michigan"/>
            </assigner>
          </identifier>
          <code>
            <coding>
              <system value="http://example.org/michigan.gov/lara/license-type"/>
              <code value="4305"/>
              <display value="Medical Doctor"/>
            </coding>
          </code>
          <issuer>
            <display value="Michigan Department of Licensing and Regulatory Affairs"/>
          </issuer>
        </qualification>
      </Practitioner>
    </resource>
    <search>
      <mode value="include"/>
    </search>
  </entry>
  <entry>
    <fullUrl value="http://52.90.126.238:8080/fhir/baseDstu3/Endpoint/Endpoint-71"/>
    <resource>
      <Endpoint>
        <id value="71"/>
        <text>
          <status value="generated"/><div xmlns="http://www.w3.org/1999/xhtml"><p><b>Generated Narrative</b></p><div style="display: inline-block; background-color: #d9e0e7; padding: 6px; margin: 4px; border: 1px solid #8da1b4; border-radius: 5px; line-height: 60%"><p style="margin-bottom: 0px">Resource "71" </p></div><p><b>status</b>: active</p><p><b>connectionType</b>: Direct Project (Details: http://terminology.hl7.org/CodeSystem/endpoint-connection-type code direct-project = 'Direct Project', stated as 'null')</p><p><b>name</b>: Brenda.Jennings.Richard.MD@direct.example.org</p><p><b>managingOrganization</b>: <a href="Organization-acme-lab.html">Organization/acme-lab</a> "Acme Labs"</p><p><b>payloadType</b>: urn:hl7-org:sdwg:ccda-structuredBody:1.1 <span style="background: LightGoldenRodYellow; margin: 4px; border: 1px solid khaki"> (unknown#urn:hl7-org:sdwg:ccda-structuredBody:1.1)</span></p><p><b>payloadMimeType</b>: text/xml</p><p><b>address</b>: <a href="mailto:Brenda.Jennings.Richard.MD@direct.example.org">Brenda.Jennings.Richard.MD@direct.example.org</a></p></div>
        </text>
        <status value="active"/>
        <connectionType>
          <system value="http://terminology.hl7.org/CodeSystem/endpoint-connection-type"/>
          <code value="direct-project"/>
        </connectionType>
        <name value="Brenda.Jennings.Richard.MD@direct.example.org"/>
        <managingOrganization>
          <reference value="Organization/acme-lab"/>
        </managingOrganization>
        <payloadType>
          <coding>
            <system value="urn:oid:1.3.6.1.4.1.19376.1.2.3"/>
            <code value="urn:hl7-org:sdwg:ccda-structuredBody:1.1"/>
          </coding>
        </payloadType>
        <payloadMimeType value="text/xml"/>
        <address value="mailto:Brenda.Jennings.Richard.MD@direct.example.org"/>
      </Endpoint>
    </resource>
    <search>
      <mode value="include"/>
    </search>
  </entry>
</Bundle>