{
  "resourceType": "Bundle",
  "id": "66c8856b-ba11-4876-8aa8-467aad8c11a2",
  "type": "searchset",
  "total": 1,
  "link": [
    {
      "relation": "self",
      "url": "http://example.org/fhir/PractitionerRole?_id=PractitionerRole-1&_include=PractitionerRole%3Apractitioner&_include=PractitionerRole%3Aendpoint"
    }
  ],
  "entry": [
    {
      "fullUrl": "http://52.90.126.238:8080/fhir/baseDstu3/PractitionerRole/PractitionerRole-1",
      "resource": {
        "resourceType": "PractitionerRole",
        "id": "PractitionerRole-1",
        "meta": {
          "profile": [
            "http://hl7.org/fhir/us/core/StructureDefinition/us-core-practitionerrole"
          ]
        },
        "practitioner": {
          "reference": "Practitioner/Practitioner-1011",
          "display": "Brenda Jennings Richard MD"
        },
        "organization": {
          "reference": "Organization/acme-lab",
          "display": "Acme Lab"
        },
        "code": [
          {
            "coding": [
              {
                "system": "http://terminology.hl7.org/CodeSystem/v3-ParticipationFunction",
                "code": "PCP",
                "display": "primary care physician"
              },
              {
                "system": "http://nucc.org/provider-taxonomy",
                "code": "261QP2300X",
                "display": "Primary Care Clinic/Center"
              }
            ]
          }
        ],
        "specialty": [
          {
            "coding": [
              {
                "system": "http://nucc.org/provider-taxonomy",
                "code": "208D00000X",
                "display": "General Practice Physician"
              }
            ]
          }
        ],
        "location": [
          {
            "reference": "Location/hl7east",
            "display": "Health Level Seven International"
          }
        ],
        "endpoint": [
          {
            "reference": "http://52.90.126.238:8080/fhir/baseDstu3/Endpoint/71",
            "display": "Westwood Physicians Organization ADT"
          },
          {
            "reference": "http://52.90.126.238:8080/fhir/baseDstu3/Endpoint/71",
            "display": "Brenda.Jennings.Richard.MD@direct.example.org"
          }
        ]
      },
      "search": {
        "mode": "match"
      }
    },
    {
      "fullUrl": "http://52.90.126.238:8080/fhir/baseDstu3/Practitioner/Practitioner-1011",
      "resource": {
        "resourceType": "Practitioner",
        "id": "Practitioner-1011",
        "meta": {
          "profile": [
            "http://hl7.org/fhir/us/core/StructureDefinition/us-core-practitioner"
          ]
        },
        "identifier": [
          {
            "use": "official",
            "system": "http://hl7.org/fhir/sid/us-ssn",
            "value": "000001011"
          },
          {
            "use": "official",
            "system": "http://hl7.org/fhir/sid/us-npi",
            "value": "9999991018"
          },
          {
            "use": "official",
            "system": "http://example.org/fhir/cks",
            "value": "d46f70565a1042f6a6ece48dd81b408f"
          }
        ],
        "name": [
          {
            "family": "Richard",
            "given": [
              "Brenda",
              "Jennings"
            ],
            "suffix": [
              "MD"
            ]
          }
        ],
        "telecom": [
          {
            "system": "phone",
            "value": "313-555-6868",
            "use": "home"
          },
          {
            "system": "phone",
            "value": "313-555-6443",
            "use": "work"
          }
        ],
        "address": [
          {
            "text": "346 W Plum Avenu Dearborn MI 48123",
            "line": [
              "346 W Plum Avenue"
            ],
            "city": "Dearborn",
            "state": "MI",
            "postalCode": "48126"
          }
        ],
        "birthDate": "1976-11-15",
        "qualification": [
          {
            "identifier": [
              {
                "use": "official",
                "type": {
                  "coding": [
                    {
                      "system": "http://terminology.hl7.org/CodeSystem/v2-0203",
                      "code": "MD",
                      "display": "Medical License number"
                    }
                  ],
                  "text": "Michigan Medical License"
                },
                "system": "http://example.org/fhir/michigan.gov/fhir/medical-license",
                "value": "LARA-1011",
                "assigner": {
                  "display": "State of Michigan"
                }
              }
            ],
            "code": {
              "coding": [
                {
                  "system": "http://example.org/fhir/michigan.gov/lara/license-type",
                  "code": "4305",
                  "display": "Medical Doctor"
                }
              ]
            },
            "issuer": {
              "display": "Michigan Department of Licensing and Regulatory Affairs"
            }
          }
        ]
      },
      "search": {
        "mode": "include"
      }
    },
    {
      "fullUrl": "http://52.90.126.238:8080/fhir/baseDstu3/Endpoint/71",
      "resource": {
        "resourceType": "Endpoint",
        "id": "71",
        "status": "active",
        "connectionType": {
          "system": "http://terminology.hl7.org/CodeSystem/endpoint-connection-type",
          "code": "direct-project"
        },
        "name": "Brenda.Jennings.Richard.MD@direct.example.org",
        "managingOrganization": {
          "reference": "Organization/acme-lab"
        },
        "payloadType": [
          {
            "coding": [
              {
                "system": "http://ihe.net/fhir/ihe.formatcode.fhir/CodeSystem/formatcode",
                "code": "urn:hl7-org:sdwg:ccda-structuredBody:1.1"
              }
            ]
          }
        ],
        "payloadMimeType": [
          "text/xml"
        ],
        "address": "mailto:Brenda.Jennings.Richard.MD@direct.example.org"
      },
      "search": {
        "mode": "include"
      }
    }
  ]
}
